File: Tensile test/TENSILE TEST.is_qtest_Exports/TENSILE TEST_3.csv
Time,Displacement,Force
(s),(mm),(kN)
"0.0000","-0.0001","0.0009"
"0.2000","0.5838","0.0001"
"0.4000","1.3192","0.0000"
"0.6000","2.0029","0.0008"
"0.8000","2.6725","0.0014"
"1.0000","3.3398","0.0016"
"1.2000","4.0066","0.0019"
"1.4000","4.6733","0.0018"
"1.6000","5.3399","0.0031"
"1.8000","6.0066","0.0034"
"2.0000","6.6732","0.0038"
"2.2000","7.3400","0.0036"
"2.4000","8.0066","0.0033"
"2.6000","8.6734","0.0045"
"2.8000","9.3400","0.0051"
"3.0000","10.0064","0.0058"
"3.2000","10.6732","0.0055"
"3.4000","11.3397","0.0068"
"3.6000","12.0067","0.0066"
"3.8000","12.6732","0.0062"
"4.0000","13.3401","0.0066"
"4.2000","14.0066","0.0072"
"4.4000","14.6734","0.0072"
"4.6000","15.3400","0.0074"
"4.8000","16.0067","0.0080"
"5.0000","16.6733","0.0084"
"5.2000","17.3398","0.0082"
"5.4000","18.0066","0.0092"
"5.6000","18.6732","0.0087"
"5.8000","19.3400","0.0088"
"6.0000","20.0065","0.0092"
"6.2000","20.6732","0.0096"
"6.4000","21.3399","0.0090"
"6.6000","22.0067","0.0092"
"6.8000","22.6734","0.0097"
"7.0000","23.3401","0.0104"
"7.2000","24.0066","0.0099"
"7.4000","24.6733","0.0107"
"7.6000","25.3399","0.0107"
"7.8000","26.0066","0.0103"
"8.0000","26.6734","0.0105"
"8.2000","27.3399","0.0105"
"8.4000","28.0068","0.0112"
"8.6000","28.6734","0.0109"
"8.8000","29.3403","0.0111"
"9.0000","30.0067","0.0113"
"9.2000","30.6734","0.0111"
"9.4000","31.3400","0.0119"
"9.6000","32.0066","0.0118"
"9.8000","32.6735","0.0125"
"10.0000","33.3400","0.0122"
"10.2000","34.0066","0.0120"
"10.4000","34.6734","0.0125"
"10.6000","35.3404","0.0119"
"10.8000","36.0067","0.0128"
"11.0000","36.6733","0.0124"
"11.2000","37.3399","0.0121"
"11.4000","38.0066","0.0127"
"11.6000","38.6732","0.0130"
"11.8000","39.3400","0.0128"
"12.0000","40.0066","0.0134"
"12.2000","40.6734","0.0129"
"12.4000","41.3401","0.0135"
"12.6000","42.0068","0.0132"
"12.8000","42.6733","0.0136"
"13.0000","43.3398","0.0138"
"13.2000","44.0067","0.0136"
"13.4000","44.6731","0.0139"
"13.6000","45.3400","0.0142"
"13.8000","46.0064","0.0141"
"14.0000","46.6733","0.0146"
"14.2000","47.3398","0.0144"
"14.4000","48.0067","0.0149"
"14.6000","48.6733","0.0152"
"14.8000","49.3400","0.0149"
"15.0000","50.0067","0.0152"
"15.2000","50.6732","0.0152"
"15.4000","51.3398","0.0150"
"15.6000","52.0065","0.0147"
"15.8000","52.6733","0.0155"
"16.0000","53.3398","0.0155"
"16.2000","54.0067","0.0165"
"16.4000","54.6732","0.0152"
"16.6000","55.3400","0.0157"
"16.8000","56.0067","0.0160"
"17.0000","56.6734","0.0165"
"17.2000","57.3400","0.0166"
"17.4000","58.0067","0.0161"
"17.6000","58.6733","0.0161"
"17.8000","59.3399","0.0167"
"18.0000","60.0066","0.0167"
"18.2000","60.6731","0.0165"
"18.4000","61.3400","0.0168"
"18.6000","62.0066","0.0170"
"18.8000","62.6736","0.0165"
"19.0000","63.3400","0.0170"
"19.2000","64.0069","0.0166"
"19.4000","64.6733","0.0171"
"19.6000","65.3400","0.0179"
"19.8000","66.0067","0.0173"
"20.0000","66.6733","0.0174"
"20.2000","67.3401","0.0179"
"20.4000","68.0065","0.0181"
"20.6000","68.6734","0.0180"
"20.8000","69.3402","0.0180"
"21.0000","70.0071","0.0180"
"21.2000","70.6733","0.0179"
"21.4000","71.3400","0.0183"
"21.6000","72.0065","0.0181"
"21.8000","72.6732","0.0187"
"22.0000","73.3401","0.0190"
"22.2000","74.0067","0.0188"
"22.4000","74.6732","0.0188"
"22.6000","75.3401","0.0186"
"22.8000","76.0069","0.0188"
"23.0000","76.6734","0.0189"
"23.2000","77.3400","0.0194"
"23.4000","78.0065","0.0194"
"23.6000","78.6732","0.0197"
"23.8000","79.3399","0.0192"
"24.0000","80.0067","0.0192"
"24.2000","80.6733","0.0200"
"24.4000","81.3401","0.0196"
"24.6000","82.0065","0.0200"
"24.8000","82.6733","0.0205"
"25.0000","83.3400","0.0208"
"25.2000","84.0068","0.0204"
"25.4000","84.6733","0.0203"
"25.6000","85.3398","0.0203"
"25.8000","86.0065","0.0210"
"26.0000","86.6730","0.0208"
"26.2000","87.3400","0.0215"
"26.4000","88.0065","0.0215"
"26.6000","88.6733","0.0219"
"26.8000","89.3399","0.0213"
"27.0000","90.0066","0.0206"
"27.2000","90.6733","0.0206"
"27.4000","91.3400","0.0214"
"27.6000","92.0065","0.0216"
"27.8000","92.6732","0.0217"
"28.0000","93.3398","0.0219"
"28.2000","94.0066","0.0222"
"28.4000","94.6733","0.0217"
"28.6000","95.3398","0.0218"
"28.8000","96.0066","0.0230"
"29.0000","96.6732","0.0223"
"29.2000","97.3402","0.0228"
"29.4000","98.0068","0.0232"
"29.6000","98.6735","0.0224"
"29.8000","99.3399","0.0223"
"30.0000","100.0065","0.0229"
"30.2000","100.6732","0.0237"
"30.4000","101.3398","0.0235"
"30.6000","102.0067","0.0224"
"30.8000","102.6732","0.0229"
"31.0000","103.3400","0.0237"
"31.2000","104.0068","0.0229"
"31.4000","104.6736","0.0238"
"31.6000","105.3400","0.0244"
"31.8000","106.0067","0.0240"
"32.0000","106.6734","0.0237"
"32.2000","107.3400","0.0246"
"32.4000","108.0067","0.0241"
"32.6000","108.6734","0.0245"
"32.8000","109.3400","0.0251"
"33.0000","110.0068","0.0248"
"33.2000","110.6738","0.0247"
"33.4000","111.3400","0.0252"
"33.6000","112.0067","0.0252"
"33.8000","112.6732","0.0252"
"34.0000","113.3399","0.0256"
"34.2000","114.0065","0.0255"
"34.4000","114.6733","0.0257"
"34.6000","115.3399","0.0258"
"34.8000","116.0068","0.0257"
"35.0000","116.6734","0.0261"
"35.2000","117.3400","0.0264"
"35.4000","118.0066","0.0265"
"35.6000","118.6732","0.0266"
"35.8000","119.3399","0.0263"
"36.0000","120.0065","0.0264"
"36.2000","120.6733","0.0267"
"36.4000","121.3397","0.0271"
"36.6000","122.0067","0.0273"
"36.8000","122.6731","0.0277"
"37.0000","123.3401","0.0274"
"37.2000","124.0066","0.0276"
"37.4000","124.6734","0.0271"
"37.6000","125.3401","0.0276"
"37.8000","126.0065","0.0279"
"38.0000","126.6732","0.0278"
"38.2000","127.3398","0.0284"
"38.4000","128.0066","0.0281"
"38.6000","128.6732","0.0285"
"38.8000","129.3401","0.0283"
"39.0000","130.0065","0.0286"
"39.2000","130.6733","0.0288"
"39.4000","131.3399","0.0285"
"39.6000","132.0067","0.0288"
"39.8000","132.6733","0.0298"
"40.0000","133.3400","0.0299"
"40.2000","134.0066","0.0295"
"40.4000","134.6732","0.0296"
"40.6000","135.3399","0.0303"
"40.8000","136.0064","0.0301"
"41.0000","136.6733","0.0299"
"41.2000","137.3399","0.0309"
"41.4000","138.0069","0.0301"
"41.6000","138.6733","0.0300"
"41.8000","139.3402","0.0310"
"42.0000","140.0066","0.0306"
"42.2000","140.6734","0.0312"
"42.4000","141.3400","0.0313"
"42.6000","142.0066","0.0312"
"42.8000","142.6734","0.0315"
"43.0000","143.3398","0.0317"
"43.2000","144.0067","0.0316"
"43.4000","144.6735","0.0316"
"43.6000","145.3405","0.0318"
"43.8000","146.0067","0.0321"
"44.0000","146.6734","0.0320"
"44.2000","147.3400","0.0323"
"44.4000","148.0066","0.0326"
"44.6000","148.6734","0.0328"
"44.8000","149.3400","0.0332"
"45.0000","150.0065","0.0335"
"45.2000","150.6734","0.0331"
"45.4000","151.3401","0.0327"
"45.6000","152.0068","0.0346"
"45.8000","152.6733","0.0343"
"46.0000","153.3397","0.0343"
"46.2000","154.0065","0.0343"
"46.4000","154.6732","0.0342"
"46.6000","155.3400","0.0340"
"46.8000","156.0066","0.0344"
"47.0000","156.6734","0.0348"
"47.2000","157.3399","0.0345"
"47.4000","158.0066","0.0346"
"47.6000","158.6734","0.0352"
"47.8000","159.3401","0.0350"
"48.0000","160.0067","0.0357"
"48.2000","160.6731","0.0359"
"48.4000","161.3399","0.0359"
"48.6000","162.0063","0.0361"
"48.8000","162.6733","0.0363"
"49.0000","163.3399","0.0358"
"49.2000","164.0067","0.0362"
"49.4000","164.6732","0.0364"
"49.6000","165.3400","0.0368"
"49.8000","166.0067","0.0360"
"50.0000","166.6734","0.0368"
"50.2000","167.3398","0.0375"
"50.4000","168.0065","0.0375"
"50.6000","168.6732","0.0376"
"50.8000","169.3398","0.0376"
"51.0000","170.0066","0.0387"
"51.2000","170.6731","0.0384"
"51.4000","171.3400","0.0391"
"51.6000","172.0065","0.0382"
"51.8000","172.6735","0.0386"
"52.0000","173.3400","0.0387"
"52.2000","174.0068","0.0393"
"52.4000","174.6733","0.0390"
"52.6000","175.3399","0.0400"
"52.8000","176.0066","0.0392"
"53.0000","176.6733","0.0395"
"53.2000","177.3401","0.0402"
"53.4000","178.0065","0.0404"
"53.6000","178.6734","0.0412"
"53.8000","179.3400","0.0408"
"54.0000","180.0069","0.0411"
"54.2000","180.6733","0.0414"
"54.4000","181.3400","0.0415"
"54.6000","182.0066","0.0417"
"54.8000","182.6732","0.0419"
"55.0000","183.3400","0.0417"
"55.2000","184.0067","0.0422"
"55.4000","184.6732","0.0422"
"55.6000","185.3400","0.0429"
"55.8000","186.0071","0.0436"
"56.0000","186.6733","0.0433"
"56.2000","187.3400","0.0433"
"56.4000","188.0065","0.0439"
"56.6000","188.6733","0.0438"
"56.8000","189.3400","0.0436"
"57.0000","190.0066","0.0438"
"57.2000","190.6733","0.0444"
"57.4000","191.3401","0.0440"
"57.6000","192.0067","0.0447"
"57.8000","192.6735","0.0445"
"58.0000","193.3400","0.0456"
"58.2000","194.0066","0.0453"
"58.4000","194.6732","0.0462"
"58.6000","195.3398","0.0461"
"58.8000","196.0066","0.0461"
"59.0000","196.6730","0.0459"
"59.2000","197.3400","0.0468"
"59.4000","198.0064","0.0466"
"59.6000","198.6734","0.0469"
"59.8000","199.3399","0.0474"
"60.0000","200.0067","0.0478"
"60.2000","200.6733","0.0479"
"60.4000","201.3398","0.0483"
"60.6000","202.0066","0.0486"
"60.8000","202.6730","0.0483"
"61.0000","203.3400","0.0491"
"61.2000","204.0065","0.0491"
"61.4000","204.6734","0.0487"
"61.6000","205.3399","0.0494"
"61.8000","206.0067","0.0496"
"62.0000","206.6733","0.0499"
"62.2000","207.3400","0.0503"
"62.4000","208.0066","0.0509"
"62.6000","208.6733","0.0514"
"62.8000","209.3400","0.0514"
"63.0000","210.0066","0.0513"
"63.2000","210.6732","0.0508"
"63.4000","211.3398","0.0528"
"63.6000","212.0066","0.0530"
"63.8000","212.6732","0.0527"
"64.0000","213.3403","0.0532"
"64.2000","214.0066","0.0528"
"64.4000","214.6735","0.0531"
"64.6000","215.3399","0.0543"
"64.8000","216.0066","0.0536"
"65.0000","216.6733","0.0548"
"65.2000","217.3399","0.0548"
"65.4000","218.0067","0.0551"
"65.6000","218.6732","0.0557"
"65.8000","219.3400","0.0554"
"66.0000","220.0069","0.0561"
"66.2000","220.6737","0.0562"
"66.4000","221.3400","0.0568"
"66.6000","222.0067","0.0571"
"66.8000","222.6733","0.0570"
"67.0000","223.3401","0.0577"
"67.2000","224.0068","0.0578"
"67.4000","224.6734","0.0580"
"67.6000","225.3399","0.0583"
"67.8000","226.0067","0.0577"
"68.0000","226.6735","0.0595"
"68.2000","227.3401","0.0600"
"68.4000","228.0067","0.0602"
"68.6000","228.6730","0.0607"
"68.8000","229.3399","0.0601"
"69.0000","230.0065","0.0606"
"69.2000","230.6733","0.0614"
"69.4000","231.3400","0.0613"
"69.6000","232.0067","0.0616"
"69.8000","232.6731","0.0626"
"70.0000","233.3400","0.0625"
"70.2000","234.0066","0.0629"
"70.4000","234.6734","0.0634"
"70.6000","235.3400","0.0635"
"70.8000","236.0064","0.0642"
"71.0000","236.6732","0.0641"
"71.2000","237.3396","0.0649"
"71.4000","238.0067","0.0652"
"71.6000","238.6731","0.0655"
"71.8000","239.3401","0.0665"
"72.0000","240.0066","0.0663"
"72.2000","240.6733","0.0681"
"72.4000","241.3400","0.0679"
"72.6000","242.0068","0.0678"
"72.8000","242.6732","0.0680"
"73.0000","243.3398","0.0691"
"73.2000","244.0065","0.0693"
"73.4000","244.6731","0.0698"
"73.6000","245.3400","0.0701"
"73.8000","246.0065","0.0701"
"74.0000","246.6733","0.0711"
"74.2000","247.3398","0.0714"
"74.4000","248.0067","0.0715"
"74.6000","248.6734","0.0726"
"74.8000","249.3401","0.0733"
"75.0000","250.0065","0.0734"
"75.2000","250.6732","0.0736"
"75.4000","251.3398","0.0739"
"75.6000","252.0065","0.0745"
"75.8000","252.6734","0.0753"
"76.0000","253.3398","0.0760"
"76.2000","254.0067","0.0762"
"76.4000","254.6733","0.0763"
"76.6000","255.3402","0.0769"
"76.8000","256.0067","0.0777"
"77.0000","256.6733","0.0784"
"77.2000","257.3400","0.0788"
"77.4000","258.0066","0.0798"
"77.6000","258.6734","0.0805"
"77.8000","259.3400","0.0805"
"78.0000","260.0066","0.0815"
"78.2000","260.6734","0.0816"
"78.4000","261.3404","0.0824"
"78.6000","262.0066","0.0826"
"78.8000","262.6733","0.0831"
"79.0000","263.3399","0.0837"
"79.2000","264.0065","0.0841"
"79.4000","264.6733","0.0853"
"79.6000","265.3399","0.0851"
"79.8000","266.0066","0.0862"
"80.0000","266.6734","0.0876"
"80.2000","267.3401","0.0877"
"80.4000","268.0067","0.0877"
"80.6000","268.6733","0.0893"
"80.8000","269.3398","0.0892"
"81.0000","270.0066","0.0896"
"81.2000","270.6732","0.0912"
"81.4000","271.3400","0.0913"
"81.6000","272.0063","0.0924"
"81.8000","272.6733","0.0926"
"82.0000","273.3398","0.0937"
"82.2000","274.0067","0.0941"
"82.4000","274.6732","0.0947"
"82.6000","275.3400","0.0956"
"82.8000","276.0067","0.0957"
"83.0000","276.6731","0.0968"
"83.2000","277.3399","0.0967"
"83.4000","278.0064","0.0981"
"83.6000","278.6734","0.0990"
"83.8000","279.3398","0.0993"
"84.0000","280.0066","0.1011"
"84.2000","280.6732","0.1019"
"84.4000","281.3400","0.1026"
"84.6000","282.0066","0.1026"
"84.8000","282.6733","0.1037"
"85.0000","283.3399","0.1043"
"85.2000","284.0066","0.1048"
"85.4000","284.6732","0.1054"
"85.6000","285.3398","0.1064"
"85.8000","286.0064","0.1069"
"86.0000","286.6730","0.1067"
"86.2000","287.3399","0.1078"
"86.4000","288.0065","0.1088"
"86.6000","288.6736","0.1090"
"86.8000","289.3401","0.1097"
"87.0000","290.0069","0.1107"
"87.2000","290.6732","0.1014"
"87.4000","291.3400","0.1060"
"87.6000","292.0065","0.1080"
"87.8000","292.6732","0.1098"
"88.0000","293.3401","0.1106"
"88.2000","294.0065","0.1118"
"88.4000","294.6733","0.1127"
"88.6000","295.3401","0.1135"
"88.8000","296.0071","0.1147"
"89.0000","296.6733","0.1145"
"89.2000","297.3401","0.1157"
"89.4000","298.0066","0.1164"
"89.6000","298.6733","0.1178"
"89.8000","299.3400","0.1180"
"90.0000","300.0068","0.1198"
"90.2000","300.6733","0.1202"
"90.4000","301.3399","0.1211"
"90.6000","302.0068","0.1217"
"90.8000","302.6733","0.1218"
"91.0000","303.3401","0.1234"
"91.2000","304.0064","0.1241"
"91.4000","304.6732","0.1252"
"91.6000","305.3398","0.1256"
"91.8000","306.0067","0.1262"
"92.0000","306.6733","0.1075"
"92.2000","307.3400","0.1111"
"92.4000","308.0065","0.1152"
"92.6000","308.6733","0.1187"
"92.8000","309.3400","0.1218"
"93.0000","310.0067","0.1235"
"93.2000","310.6733","0.1253"
"93.4000","311.3398","0.1265"
"93.6000","312.0066","0.1280"
"93.8000","312.6729","0.1290"
"94.0000","313.3400","0.1299"
"94.2000","314.0064","0.1308"
"94.4000","314.6734","0.1325"
"94.6000","315.3398","0.1327"
"94.8000","316.0066","0.1329"
"95.0000","316.6734","0.1339"
"95.2000","317.3401","0.1340"
"95.4000","318.0065","0.1348"
"95.6000","318.6730","0.1353"
"95.8000","319.3399","0.1372"
"96.0000","320.0067","0.1387"
"96.2000","320.6733","0.1396"
"96.4000","321.3397","0.1403"
"96.6000","322.0066","0.1027"
"96.8000","322.6731","0.1076"
"97.0000","323.3402","0.1117"
"97.2000","324.0067","0.1160"
"97.4000","324.6734","0.1189"
"97.6000","325.3399","0.1215"
"97.8000","326.0066","0.1257"
"98.0000","326.6731","0.1285"
"98.2000","327.3398","0.1302"
"98.4000","328.0067","0.1318"
"98.6000","328.6731","0.1335"
"98.8000","329.3401","0.1360"
"99.0000","330.0066","0.1371"
"99.2000","330.6735","0.1383"
"99.4000","331.3400","0.1398"
"99.6000","332.0065","0.1417"
"99.8000","332.6732","0.1426"
"100.0000","333.3399","0.1436"
"100.2000","334.0066","0.1447"
"100.4000","334.6733","0.1453"
"100.6000","335.3399","0.1461"
"100.8000","336.0068","0.1482"
"101.0000","336.6737","0.1487"
"101.2000","337.3400","0.1481"
"101.4000","338.0067","0.1074"
"101.6000","338.6732","0.1148"
"101.8000","339.3398","0.1198"
"102.0000","340.0066","0.1235"
"102.2000","340.6733","0.1273"
"102.4000","341.3400","0.1297"
"102.6000","342.0067","0.1338"
"102.8000","342.6734","0.1371"
"103.0000","343.3400","0.1386"
"103.2000","344.0066","0.1412"
"103.4000","344.6731","0.1431"
"103.6000","345.3400","0.1452"
"103.8000","346.0065","0.1468"
"104.0000","346.6731","0.1486"
"104.2000","347.3398","0.1504"
"104.4000","348.0067","0.1515"
"104.6000","348.6731","0.1529"
"104.8000","349.3400","0.1159"
"105.0000","350.0066","0.1243"
"105.2000","350.6732","0.1299"
"105.4000","351.3400","0.1340"
"105.6000","352.0064","0.1378"
"105.8000","352.6732","0.1417"
"106.0000","353.3398","0.1447"
"106.2000","354.0066","0.1480"
"106.4000","354.6732","0.1497"
"106.6000","355.3400","0.1525"
"106.8000","356.0065","0.1527"
"107.0000","356.6733","0.1558"
"107.2000","357.3400","0.1562"
"107.4000","358.0066","0.1304"
"107.6000","358.6732","0.1365"
"107.8000","359.3399","0.1413"
"108.0000","360.0066","0.1456"
"108.2000","360.6732","0.1489"
"108.4000","361.3399","0.1533"
"108.6000","362.0065","0.1546"
"108.8000","362.6731","0.1576"
"109.0000","363.3398","0.1586"
"109.2000","364.0069","0.1603"
"109.4000","364.6733","0.1619"
"109.6000","365.3402","0.1635"
"109.8000","366.0065","0.1654"
"110.0000","366.6733","0.1662"
"110.2000","367.3399","0.1678"
"110.4000","368.0065","0.1696"
"110.6000","368.6734","0.1702"
"110.8000","369.3398","0.1727"
"111.0000","370.0067","0.1730"
"111.2000","370.6734","0.1740"
"111.4000","371.3403","0.1758"
"111.6000","372.0067","0.1766"
"111.8000","372.6733","0.1775"
"112.0000","373.3400","0.1791"
"112.2000","374.0066","0.1801"
"112.4000","374.6733","0.1805"
"112.6000","375.3400","0.1815"
"112.8000","376.0066","0.1591"
"113.0000","376.6733","0.1551"
"113.2000","377.3402","0.1606"
"113.4000","378.0067","0.1661"
"113.6000","378.6732","0.1705"
"113.8000","379.3398","0.1745"
"114.0000","380.0065","0.1768"
"114.2000","380.6731","0.1635"
"114.4000","381.3399","0.1710"
"114.6000","382.0067","0.1758"
"114.8000","382.6734","0.1794"
"115.0000","383.3399","0.1819"
"115.2000","384.0065","0.1834"
"115.4000","384.6732","0.1850"
"115.6000","385.3400","0.1868"
"115.8000","386.0067","0.1888"
"116.0000","386.6730","0.1913"
"116.2000","387.3399","0.1920"
"116.4000","388.0062","0.1936"
"116.6000","388.6734","0.1949"
"116.8000","389.3399","0.1968"
"117.0000","390.0067","0.1980"
"117.2000","390.6731","0.2001"
"117.4000","391.3400","0.2013"
"117.6000","392.0067","0.2025"
"117.8000","392.6732","0.2037"
"118.0000","393.3397","0.2052"
"118.2000","394.0064","0.2054"
"118.4000","394.6732","0.1709"
"118.6000","395.3398","0.1777"
"118.8000","396.0067","0.1839"
"119.0000","396.6732","0.1888"
"119.2000","397.3398","0.1933"
"119.4000","398.0064","0.1973"
"119.6000","398.6734","0.2001"
"119.8000","399.3401","0.2019"
"120.0000","400.0068","0.2039"
"120.2000","400.6732","0.2066"
"120.4000","401.3398","0.2083"
"120.6000","402.0064","0.2098"
"120.8000","402.6732","0.1800"
"121.0000","403.3401","0.1877"
"121.2000","404.0065","0.1929"
"121.4000","404.6734","0.1980"
"121.6000","405.3400","0.2028"
"121.8000","406.0069","0.2056"
"122.0000","406.6734","0.2082"
"122.2000","407.3399","0.2104"
"122.4000","408.0066","0.2131"
"122.6000","408.6732","0.2145"
"122.8000","409.3400","0.2164"
"123.0000","410.0067","0.2180"
"123.2000","410.6732","0.2025"
"123.4000","411.3401","0.2094"
"123.6000","412.0070","0.2149"
"123.8000","412.6732","0.2175"
"124.0000","413.3402","0.2196"
"124.2000","414.0065","0.2222"
"124.4000","414.6732","0.2243"
"124.6000","415.3399","0.2264"
"124.8000","416.0066","0.2283"
"125.0000","416.6733","0.2303"
"125.2000","417.3400","0.2317"
"125.4000","418.0067","0.2339"
"125.6000","418.6734","0.2347"
"125.8000","419.3400","0.2370"
"126.0000","420.0065","0.2389"
"126.2000","420.6733","0.2406"
"126.4000","421.3399","0.2411"
"126.6000","422.0065","0.2425"
"126.8000","422.6731","0.2445"
"127.0000","423.3399","0.2454"
"127.2000","424.0066","0.2474"
"127.4000","424.6734","0.2488"
"127.6000","425.3399","0.2497"
"127.8000","426.0066","0.2505"
"128.0000","426.6733","0.2524"
"128.2000","427.3398","0.2540"
"128.4000","428.0065","0.2550"
"128.6000","428.6730","0.2566"
"128.8000","429.3400","0.2580"
"129.0000","430.0064","0.2380"
"129.2000","430.6734","0.2455"
"129.4000","431.3398","0.2506"
"129.6000","432.0067","0.2551"
"129.8000","432.6732","0.2580"
"130.0000","433.3399","0.2596"
"130.2000","434.0065","0.2627"
"130.4000","434.6733","0.2641"
"130.6000","435.3399","0.2669"
"130.8000","436.0066","0.2680"
"131.0000","436.6732","0.2709"
"131.2000","437.3398","0.2730"
"131.4000","438.0065","0.2739"
"131.6000","438.6732","0.2758"
"131.8000","439.3402","0.2772"
"132.0000","440.0066","0.2788"
"132.2000","440.6735","0.2808"
"132.4000","441.3398","0.2821"
"132.6000","442.0066","0.2839"
"132.8000","442.6732","0.2854"
"133.0000","443.3399","0.2527"
"133.2000","444.0068","0.2611"
"133.4000","444.6731","0.2672"
"133.6000","445.3399","0.2732"
"133.8000","446.0068","0.2782"
"134.0000","446.6736","0.2808"
"134.2000","447.3401","0.2836"
"134.4000","448.0067","0.2863"
"134.6000","448.6733","0.2884"
"134.8000","449.3398","0.2907"
"135.0000","450.0068","0.2931"
"135.2000","450.6732","0.2951"
"135.4000","451.3399","0.2976"
"135.6000","452.0067","0.2995"
"135.8000","452.6735","0.3013"
"136.0000","453.3401","0.3032"
"136.2000","454.0067","0.3053"
"136.4000","454.6730","0.3068"
"136.6000","455.3399","0.3091"
"136.8000","456.0065","0.3041"
"137.0000","456.6733","0.3034"
"137.2000","457.3399","0.3080"
"137.4000","458.0066","0.3109"
"137.6000","458.6732","0.3128"
"137.8000","459.3400","0.3147"
"138.0000","460.0066","0.3173"
"138.2000","460.6733","0.3192"
"138.4000","461.3400","0.3214"
"138.6000","462.0064","0.3230"
"138.8000","462.6731","0.3243"
"139.0000","463.3396","0.3261"
"139.2000","464.0067","0.3278"
"139.4000","464.6732","0.3054"
"139.6000","465.3400","0.3136"
"139.8000","466.0066","0.3202"
"140.0000","466.6733","0.3239"
"140.2000","467.3400","0.3266"
"140.4000","468.0068","0.3298"
"140.6000","468.6731","0.3329"
"140.8000","469.3398","0.3345"
"141.0000","470.0065","0.3365"
"141.2000","470.6731","0.3395"
"141.4000","471.3400","0.3425"
"141.6000","472.0065","0.3436"
"141.8000","472.6732","0.3462"
"142.0000","473.3397","0.3475"
"142.2000","474.0067","0.3497"
"142.4000","474.6735","0.3514"
"142.6000","475.3400","0.3536"
"142.8000","476.0066","0.3555"
"143.0000","476.6732","0.3578"
"143.2000","477.3398","0.3595"
"143.4000","478.0065","0.3612"
"143.6000","478.6733","0.3632"
"143.8000","479.3398","0.3647"
"144.0000","480.0068","0.3675"
"144.2000","480.6733","0.3693"
"144.4000","481.3401","0.3715"
"144.6000","482.0066","0.3739"
"144.8000","482.6733","0.3750"
"145.0000","483.3400","0.3764"
"145.2000","484.0065","0.3798"
"145.4000","484.6733","0.3815"
"145.6000","485.3400","0.3836"
"145.8000","486.0068","0.3853"
"146.0000","486.6734","0.3877"
"146.2000","487.3402","0.3891"
"146.4000","488.0066","0.3912"
"146.6000","488.6735","0.3926"
"146.8000","489.3399","0.3946"
"147.0000","490.0065","0.3966"
"147.2000","490.6732","0.3993"
"147.4000","491.3399","0.4007"
"147.6000","492.0065","0.4030"
"147.8000","492.6733","0.4044"
"148.0000","493.3401","0.4067"
"148.2000","494.0066","0.4084"
"148.4000","494.6733","0.4099"
"148.6000","495.3398","0.4114"
"148.8000","496.0067","0.4135"
"149.0000","496.6732","0.4156"
"149.2000","497.3398","0.4172"
"149.4000","498.0063","0.4191"
"149.6000","498.6732","0.4215"
"149.8000","499.3398","0.4232"
"150.0000","500.0067","0.4253"
"150.2000","500.6732","0.4271"
"150.4000","501.3400","0.4288"
"150.6000","502.0067","0.4311"
"150.8000","502.6732","0.4329"
"151.0000","503.3398","0.4344"
"151.2000","504.0064","0.4351"
"151.4000","504.6733","0.4376"
"151.6000","505.3398","0.4393"
"151.8000","506.0066","0.4415"
"152.0000","506.6732","0.4434"
"152.2000","507.3400","0.4456"
"152.4000","508.0065","0.4475"
"152.6000","508.6732","0.4495"
"152.8000","509.3399","0.4518"
"153.0000","510.0064","0.4538"
"153.2000","510.6732","0.4555"
"153.4000","511.3397","0.4580"
"153.6000","512.0065","0.4606"
"153.8000","512.6731","0.4627"
"154.0000","513.3398","0.4652"
"154.2000","514.0064","0.4670"
"154.4000","514.6735","0.4690"
"154.6000","515.3400","0.4712"
"154.8000","516.0069","0.4742"
"155.0000","516.6732","0.4766"
"155.2000","517.3400","0.4789"
"155.4000","518.0065","0.4806"
"155.6000","518.6733","0.4830"
"155.8000","519.3399","0.4858"
"156.0000","520.0066","0.4868"
"156.2000","520.6733","0.4900"
"156.4000","521.3401","0.4915"
"156.6000","522.0070","0.4942"
"156.7840","522.6199","0.2292"
"156.9840","523.2865","0.1027"
"157.1840","523.9535","0.1069"
"157.3840","524.6199","0.1110"
"157.5840","525.2866","0.1138"
"157.7840","525.9531","0.1166"
"157.9840","526.6199","0.1193"
"158.1840","527.2865","0.1223"
"158.3840","527.9532","0.1247"
"158.5840","528.6200","0.1243"
"158.7840","529.2866","0.1234"
"158.9840","529.9531","0.1262"
"159.1840","530.6198","0.1283"
"159.3840","531.2867","0.1313"
"159.5840","531.9532","0.1341"
"159.7840","532.6200","0.1364"
"159.9840","533.2864","0.1384"
"160.1840","533.9535","0.1409"
"160.3840","534.6199","0.1439"
"160.5840","535.2867","0.1461"
"160.7840","535.9532","0.1489"
"160.9840","536.6199","0.1433"
"161.1840","537.2868","0.1440"
"161.3840","537.9532","0.1472"
"161.5840","538.6199","0.1497"
"161.7840","539.2867","0.1535"
"161.9840","539.9537","0.1547"
"162.1840","540.6199","0.1571"
"162.3840","541.2866","0.1593"
"162.5840","541.9532","0.1607"
"162.7840","542.6199","0.1629"
"162.9840","543.2866","0.1648"
"163.1840","543.9533","0.1663"
"163.3840","544.6200","0.1689"
"163.5840","545.2867","0.1441"
"163.7840","545.9534","0.1479"
"163.9840","546.6198","0.1523"
"164.1840","547.2865","0.1565"
"164.3840","547.9531","0.1345"
"164.5840","548.6199","0.1377"
"164.7840","549.2864","0.1403"
"164.9840","549.9533","0.1443"
"165.1840","550.6199","0.1471"
"165.3840","551.2867","0.1504"
"165.5840","551.9532","0.1537"
"165.7840","552.6199","0.1567"
"165.9840","553.2866","0.1594"
"166.1840","553.9534","0.1325"
"166.3840","554.6199","0.1240"
"166.5840","555.2864","0.1267"
"166.7840","555.9532","0.1296"
"166.9840","556.6196","0.1328"
"167.1840","557.2866","0.1357"
"167.3840","557.9532","0.1387"
"167.5840","558.6201","0.1312"
"167.7840","559.2864","0.1027"
"167.9840","559.9531","0.1046"
"168.1840","560.6198","0.1075"
"168.3840","561.2866","0.1101"
"168.5840","561.9531","0.1119"
"168.7840","562.6198","0.1149"
"168.9840","563.2864","0.1177"
"169.1840","563.9532","0.1204"
"169.3840","564.6199","0.1226"
"169.5840","565.2865","0.1249"
"169.7840","565.9532","0.1086"
"169.9840","566.6199","0.1110"
"170.1840","567.2866","0.1138"
"170.3840","567.9533","0.1165"
"170.5840","568.6201","0.1194"
"170.7840","569.2866","0.1222"
"170.9840","569.9533","0.1246"
"171.1840","570.6197","0.1272"
"171.3840","571.2866","0.1290"
"171.5840","571.9532","0.1313"
"171.7840","572.6199","0.1338"
"171.9840","573.2867","0.1347"
"172.1840","573.9532","0.1368"
"172.3840","574.6199","0.1328"
"172.5840","575.2867","0.1226"
"172.7840","575.9533","0.1260"
"172.9840","576.6199","0.1288"
"173.1840","577.2864","0.1298"
"173.3840","577.9534","0.1324"
"173.5840","578.6199","0.1351"
"173.7840","579.2867","0.1376"
"173.9840","579.9534","0.1405"
"174.1840","580.6202","0.1425"
"174.3840","581.2866","0.1449"
"174.5840","581.9534","0.1476"
"174.7840","582.6198","0.1495"
"174.9840","583.2864","0.1519"
"175.1840","583.9531","0.1543"
"175.3840","584.6199","0.1564"
"175.5840","585.2867","0.1512"
"175.7840","585.9536","0.1547"
"175.9840","586.6201","0.1570"
"176.1840","587.2865","0.1589"
"176.3840","587.9531","0.1615"
"176.5840","588.6198","0.1639"
"176.7840","589.2865","0.1659"
"176.9840","589.9530","0.1688"
"177.1840","590.6198","0.1698"
"177.3840","591.2863","0.1725"
"177.5840","591.9534","0.1754"
"177.7840","592.6198","0.1772"
"177.9840","593.2864","0.1715"
"178.1840","593.9531","0.1576"
"178.3840","594.6199","0.1615"
"178.5840","595.2864","0.1654"
"178.7840","595.9534","0.1681"
"178.9840","596.6197","0.1717"
"179.1840","597.2863","0.1742"
"179.3840","597.9531","0.1772"
"179.5840","598.6199","0.1797"
"179.7840","599.2867","0.1427"
"179.9840","599.9533","0.1475"
"180.1840","600.6198","0.1514"
"180.3840","601.2866","0.1543"
"180.5840","601.9532","0.1582"
"180.7840","602.6199","0.1611"
"180.9840","603.2864","0.1638"
"181.1840","603.9532","0.1665"
"181.3840","604.6199","0.1697"
"181.5840","605.2864","0.1719"
"181.7840","605.9531","0.1755"
"181.9840","606.6202","0.1239"
"182.1840","607.2864","0.1228"
"182.3840","607.9532","0.1258"
"182.5840","608.6198","0.1291"
"182.7840","609.2868","0.1328"
"182.9840","609.9533","0.1359"
"183.1840","610.6198","0.1386"
"183.3840","611.2865","0.1425"
"183.5840","611.9532","0.1460"
"183.7840","612.6202","0.1484"
"183.9840","613.2864","0.1524"
"184.1840","613.9533","0.1548"
"184.3840","614.6202","0.1553"
"184.5840","615.2869","0.1582"
"184.7840","615.9532","0.1605"
"184.9840","616.6201","0.1634"
"185.1840","617.2867","0.1508"
"185.3840","617.9531","0.1559"
"185.5840","618.6198","0.1592"
"185.7840","619.2867","0.1623"
"185.9840","619.9532","0.1652"
"186.1840","620.6201","0.1677"
"186.3840","621.2867","0.1703"
"186.5840","621.9531","0.1733"
"186.7840","622.6198","0.1749"
"186.9840","623.2864","0.1773"
"187.1840","623.9532","0.1796"
"187.3840","624.6196","0.1809"
"187.5840","625.2867","0.1831"
"187.7840","625.9531","0.1854"
"187.9840","626.6200","0.1870"
"188.1840","627.2865","0.1890"
"188.3840","627.9534","0.1912"
"188.5840","628.6198","0.1928"
"188.7840","629.2865","0.1952"
"188.9840","629.9532","0.1951"
"189.1840","630.6198","0.1974"
"189.3840","631.2865","0.0686"
"189.5840","631.9529","0.0715"
"189.7840","632.6199","0.0730"
"189.9840","633.2866","0.0760"
"190.1840","633.9533","0.0750"
"190.3840","634.6196","0.0770"
"190.5840","635.2866","0.0787"
"190.7840","635.9531","0.0809"
"190.9840","636.6201","0.0821"
"191.1840","637.2864","0.0768"
"191.3840","637.9531","0.0538"
"191.5840","638.6198","0.0552"
"191.7840","639.2865","0.0569"
"191.9840","639.9532","0.0578"
"192.1840","640.6199","0.0588"
"192.3840","641.2867","0.0602"
"192.5840","641.9530","0.0613"
"192.7840","642.6198","0.0630"
"192.9840","643.2866","0.0638"
"193.1840","643.9534","0.0650"
"193.3840","644.6199","0.0663"
"193.5840","645.2865","0.0675"
"193.7840","645.9531","0.0676"
"193.9840","646.6198","0.0697"
"194.1840","647.2867","0.0704"
"194.3840","647.9532","0.0716"
"194.5840","648.6198","0.0739"
"194.7840","649.2866","0.0749"
"194.9840","649.9534","0.0760"
"195.1840","650.6199","0.0769"
"195.3840","651.2866","0.0789"
"195.5840","651.9533","0.0594"
"195.7840","652.6199","0.0513"
"195.9840","653.2867","0.0522"
"196.1840","653.9532","0.0537"
"196.3840","654.6200","0.0550"
"196.5840","655.2867","0.0559"
"196.7840","655.9536","0.0568"
"196.9840","656.6199","0.0574"
"197.1840","657.2867","0.0585"
"197.3840","657.9531","0.0600"
"197.5840","658.6198","0.0602"
"197.7840","659.2864","0.0617"
"197.9840","659.9531","0.0626"
"198.1840","660.6201","0.0634"
"198.3840","661.2868","0.0646"
"198.5840","661.9532","0.0657"
"198.7840","662.6200","0.0669"
"198.9840","663.2864","0.0677"
"199.1840","663.9529","0.0686"
"199.3840","664.6199","0.0697"
"199.5840","665.2865","0.0711"
"199.7840","665.9532","0.0723"
"199.9840","666.6198","0.0726"
"200.1840","667.2866","0.0743"
"200.3840","667.9532","0.0757"
"200.5840","668.6202","0.0768"
"200.7840","669.2864","0.0775"
"200.9840","669.9532","0.0696"
"201.1840","670.6199","0.0724"
"201.3840","671.2865","0.0740"
"201.5840","671.9530","0.0756"
"201.7840","672.6197","0.0764"
"201.9840","673.2864","0.0784"
"202.1840","673.9534","0.0800"
"202.3840","674.6201","0.0804"
"202.5840","675.2864","0.0822"
"202.7840","675.9533","0.0838"
"202.9840","676.6197","0.0852"
"203.1840","677.2864","0.0865"
"203.3840","677.9531","0.0883"
"203.5840","678.6201","0.0888"
"203.7840","679.2866","0.0896"
"203.9840","679.9532","0.0912"
"204.1840","680.6197","0.0918"
"204.3840","681.2864","0.0939"
"204.5840","681.9534","0.0952"
"204.7840","682.6198","0.0969"
"204.9840","683.2867","0.0971"
"205.1840","683.9532","0.0994"
"205.3840","684.6201","0.1006"
"205.5840","685.2864","0.1018"
"205.7840","685.9532","0.1027"
"205.9840","686.6199","0.1047"
"206.1840","687.2866","0.1058"
"206.3840","687.9533","0.1083"
"206.5840","688.6199","0.1082"
"206.7840","689.2866","0.1097"
"206.9840","689.9534","0.1114"
"207.1840","690.6202","0.1130"
"207.3840","691.2864","0.1137"
"207.5840","691.9534","0.1158"
"207.7840","692.6198","0.1177"
"207.9840","693.2864","0.1191"
"208.1840","693.9532","0.1200"
"208.3840","694.6199","0.1216"
"208.5840","695.2867","0.1220"
"208.7840","695.9534","0.1242"
"208.9840","696.6200","0.1256"
"209.1840","697.2866","0.1094"
"209.3840","697.9534","0.1132"
"209.5840","698.6196","0.1161"
"209.7840","699.2865","0.1185"
"209.9840","699.9531","0.1204"
"210.1840","700.6199","0.1224"
"210.3840","701.2864","0.1249"
"210.5840","701.9535","0.1270"
"210.7840","702.6199","0.1286"
"210.9840","703.2867","0.1311"
"211.1840","703.9531","0.1321"
"211.3840","704.6198","0.1337"
"211.5840","705.2866","0.1357"
"211.7840","705.9531","0.1374"
"211.9840","706.6198","0.1381"
"212.1840","707.2861","0.1403"
"212.3840","707.9533","0.1417"
"212.5840","708.6199","0.1431"
"212.7840","709.2867","0.1347"
"212.9840","709.9532","0.1379"
"213.1840","710.6197","0.1412"
"213.3840","711.2866","0.1438"
"213.5840","711.9532","0.1452"
"213.7840","712.6198","0.1476"
"213.9840","713.2864","0.1486"
"214.1840","713.9532","0.1504"
"214.3840","714.6198","0.1526"
"214.5840","715.2867","0.1508"
"214.7840","715.9531","0.1417"
"214.9840","716.6200","0.1447"
"215.1840","717.2864","0.1477"
"215.3840","717.9533","0.1517"
"215.5840","718.6199","0.1534"
"215.7840","719.2869","0.1551"
"215.9840","719.9532","0.1565"
"216.1840","720.6199","0.1584"
"216.3840","721.2863","0.1605"
"216.5840","721.9532","0.1620"
"216.7840","722.6201","0.1633"
"216.9840","723.2866","0.1654"
"217.1840","723.9533","0.1675"
"217.3840","724.6199","0.1683"
"217.5840","725.2869","0.1696"
"217.7840","725.9532","0.1707"
"217.9840","726.6200","0.1727"
"218.1840","727.2867","0.1742"
"218.3840","727.9531","0.1757"
"218.5840","728.6200","0.1773"
"218.7840","729.2867","0.0433"
"218.9840","729.9534","0.0455"
"219.1840","730.6201","0.0461"
"219.3840","731.2869","0.0467"
"219.5840","731.9530","0.0473"
"219.7840","732.6201","0.0485"
"219.9840","733.2865","0.0488"
"220.1840","733.9531","0.0497"
"220.3840","734.6199","0.0498"
"220.5840","735.2866","0.0507"
"220.7840","735.9534","0.0514"
"220.9840","736.6201","0.0513"
"221.1840","737.2866","0.0514"
"221.3840","737.9532","0.0527"
"221.5840","738.6197","0.0533"
"221.7840","739.2863","0.0542"
"221.9840","739.9533","0.0545"
"222.1840","740.6196","0.0557"
"222.3840","741.2864","0.0553"
"222.5840","741.9529","0.0560"
"222.7840","742.6200","0.0577"
"222.9840","743.2866","0.0578"
"223.1840","743.9534","0.0583"
"223.3840","744.6198","0.0592"
"223.5840","745.2866","0.0600"
"223.7840","745.9532","0.0610"
"223.8540","746.1866","0.0608"