File: Tensile test/TENSILE TEST.is_qtest_Exports/TENSILE TEST_2.csv
Time,Displacement,Force
(s),(mm),(kN)
"0.0000","-0.0001","0.0002"
"0.2000","0.5841","-0.0003"
"0.4000","1.3192","0.0009"
"0.6000","2.0027","0.0021"
"0.8000","2.6727","0.0020"
"1.0000","3.3401","0.0029"
"1.2000","4.0069","0.0022"
"1.4000","4.6733","0.0033"
"1.6000","5.3399","0.0031"
"1.8000","6.0065","0.0034"
"2.0000","6.6732","0.0037"
"2.2000","7.3398","0.0038"
"2.4000","8.0066","0.0050"
"2.6000","8.6732","0.0046"
"2.8000","9.3402","0.0052"
"3.0000","10.0067","0.0059"
"3.2000","10.6733","0.0052"
"3.4000","11.3399","0.0056"
"3.6000","12.0064","0.0056"
"3.8000","12.6733","0.0066"
"4.0000","13.3397","0.0066"
"4.2000","14.0065","0.0067"
"4.4000","14.6729","0.0064"
"4.6000","15.3400","0.0065"
"4.8000","16.0065","0.0074"
"5.0000","16.6734","0.0067"
"5.2000","17.3398","0.0073"
"5.4000","18.0066","0.0073"
"5.6000","18.6733","0.0073"
"5.8000","19.3399","0.0071"
"6.0000","20.0065","0.0078"
"6.2000","20.6732","0.0078"
"6.4000","21.3399","0.0077"
"6.6000","22.0065","0.0080"
"6.8000","22.6735","0.0081"
"7.0000","23.3399","0.0079"
"7.2000","24.0067","0.0087"
"7.4000","24.6731","0.0084"
"7.6000","25.3399","0.0088"
"7.8000","26.0066","0.0085"
"8.0000","26.6734","0.0088"
"8.2000","27.3399","0.0084"
"8.4000","28.0065","0.0082"
"8.6000","28.6731","0.0089"
"8.8000","29.3398","0.0096"
"9.0000","30.0068","0.0097"
"9.2000","30.6733","0.0096"
"9.4000","31.3400","0.0090"
"9.6000","32.0065","0.0096"
"9.8000","32.6735","0.0094"
"10.0000","33.3400","0.0098"
"10.2000","34.0067","0.0102"
"10.4000","34.6732","0.0098"
"10.6000","35.3399","0.0099"
"10.8000","36.0067","0.0095"
"11.0000","36.6733","0.0092"
"11.2000","37.3401","0.0101"
"11.4000","38.0067","0.0108"
"11.6000","38.6736","0.0103"
"11.8000","39.3398","0.0100"
"12.0000","40.0068","0.0103"
"12.2000","40.6732","0.0104"
"12.4000","41.3400","0.0115"
"12.6000","42.0065","0.0105"
"12.8000","42.6733","0.0111"
"13.0000","43.3399","0.0108"
"13.2000","44.0069","0.0110"
"13.4000","44.6736","0.0110"
"13.6000","45.3399","0.0109"
"13.8000","46.0065","0.0113"
"14.0000","46.6730","0.0118"
"14.2000","47.3399","0.0109"
"14.4000","48.0066","0.0118"
"14.6000","48.6732","0.0112"
"14.8000","49.3397","0.0116"
"15.0000","50.0067","0.0118"
"15.2000","50.6732","0.0120"
"15.4000","51.3402","0.0125"
"15.6000","52.0065","0.0125"
"15.8000","52.6733","0.0124"
"16.0000","53.3399","0.0126"
"16.2000","54.0065","0.0123"
"16.4000","54.6732","0.0130"
"16.6000","55.3397","0.0126"
"16.8000","56.0066","0.0128"
"17.0000","56.6732","0.0132"
"17.2000","57.3401","0.0133"
"17.4000","58.0066","0.0128"
"17.6000","58.6733","0.0127"
"17.8000","59.3399","0.0132"
"18.0000","60.0065","0.0132"
"18.2000","60.6731","0.0124"
"18.4000","61.3398","0.0130"
"18.6000","62.0066","0.0131"
"18.8000","62.6731","0.0131"
"19.0000","63.3399","0.0139"
"19.2000","64.0064","0.0137"
"19.4000","64.6733","0.0135"
"19.6000","65.3398","0.0137"
"19.8000","66.0067","0.0145"
"20.0000","66.6732","0.0139"
"20.2000","67.3401","0.0145"
"20.4000","68.0066","0.0145"
"20.6000","68.6733","0.0139"
"20.8000","69.3398","0.0139"
"21.0000","70.0065","0.0147"
"21.2000","70.6735","0.0144"
"21.4000","71.3399","0.0138"
"21.6000","72.0067","0.0136"
"21.8000","72.6733","0.0139"
"22.0000","73.3402","0.0134"
"22.2000","74.0066","0.0146"
"22.4000","74.6734","0.0144"
"22.6000","75.3401","0.0145"
"22.8000","76.0066","0.0149"
"23.0000","76.6734","0.0156"
"23.2000","77.3400","0.0151"
"23.4000","78.0067","0.0153"
"23.6000","78.6734","0.0156"
"23.8000","79.3402","0.0156"
"24.0000","80.0065","0.0156"
"24.2000","80.6733","0.0153"
"24.4000","81.3398","0.0154"
"24.6000","82.0065","0.0151"
"24.8000","82.6732","0.0158"
"25.0000","83.3399","0.0156"
"25.2000","84.0066","0.0156"
"25.4000","84.6734","0.0152"
"25.6000","85.3400","0.0163"
"25.8000","86.0066","0.0164"
"26.0000","86.6732","0.0158"
"26.2000","87.3397","0.0158"
"26.4000","88.0065","0.0164"
"26.6000","88.6731","0.0158"
"26.8000","89.3398","0.0154"
"27.0000","90.0062","0.0169"
"27.2000","90.6733","0.0162"
"27.4000","91.3399","0.0166"
"27.6000","92.0068","0.0163"
"27.8000","92.6733","0.0167"
"28.0000","93.3399","0.0161"
"28.2000","94.0066","0.0166"
"28.4000","94.6732","0.0168"
"28.6000","95.3398","0.0169"
"28.8000","96.0064","0.0173"
"29.0000","96.6732","0.0175"
"29.2000","97.3398","0.0179"
"29.4000","98.0068","0.0168"
"29.6000","98.6732","0.0173"
"29.8000","99.3399","0.0171"
"30.0000","100.0064","0.0174"
"30.2000","100.6731","0.0179"
"30.4000","101.3398","0.0175"
"30.6000","102.0067","0.0177"
"30.8000","102.6733","0.0179"
"31.0000","103.3398","0.0165"
"31.2000","104.0065","0.0179"
"31.4000","104.6732","0.0175"
"31.6000","105.3401","0.0177"
"31.8000","106.0066","0.0164"
"32.0000","106.6735","0.0163"
"32.2000","107.3398","0.0172"
"32.4000","108.0067","0.0173"
"32.6000","108.6733","0.0172"
"32.8000","109.3400","0.0177"
"33.0000","110.0066","0.0179"
"33.2000","110.6732","0.0170"
"33.4000","111.3399","0.0182"
"33.6000","112.0067","0.0184"
"33.8000","112.6735","0.0189"
"34.0000","113.3401","0.0193"
"34.2000","114.0068","0.0185"
"34.4000","114.6731","0.0190"
"34.6000","115.3401","0.0184"
"34.8000","116.0066","0.0186"
"35.0000","116.6733","0.0191"
"35.2000","117.3399","0.0196"
"35.4000","118.0066","0.0194"
"35.6000","118.6732","0.0193"
"35.8000","119.3402","0.0192"
"36.0000","120.0068","0.0190"
"36.2000","120.6733","0.0187"
"36.4000","121.3399","0.0194"
"36.6000","122.0063","0.0190"
"36.8000","122.6732","0.0192"
"37.0000","123.3399","0.0194"
"37.2000","124.0066","0.0191"
"37.4000","124.6730","0.0191"
"37.6000","125.3399","0.0201"
"37.8000","126.0066","0.0195"
"38.0000","126.6735","0.0193"
"38.2000","127.3398","0.0196"
"38.4000","128.0065","0.0198"
"38.6000","128.6732","0.0207"
"38.8000","129.3397","0.0204"
"39.0000","130.0065","0.0204"
"39.2000","130.6729","0.0208"
"39.4000","131.3399","0.0209"
"39.6000","132.0065","0.0207"
"39.8000","132.6734","0.0210"
"40.0000","133.3399","0.0207"
"40.2000","134.0066","0.0209"
"40.4000","134.6732","0.0208"
"40.6000","135.3398","0.0212"
"40.8000","136.0064","0.0206"
"41.0000","136.6732","0.0209"
"41.2000","137.3399","0.0217"
"41.4000","138.0065","0.0210"
"41.6000","138.6732","0.0212"
"41.8000","139.3398","0.0218"
"42.0000","140.0067","0.0216"
"42.2000","140.6732","0.0223"
"42.4000","141.3400","0.0225"
"42.6000","142.0065","0.0222"
"42.8000","142.6734","0.0224"
"43.0000","143.3397","0.0219"
"43.2000","144.0065","0.0219"
"43.4000","144.6732","0.0224"
"43.6000","145.3398","0.0224"
"43.8000","146.0067","0.0223"
"44.0000","146.6732","0.0218"
"44.2000","147.3401","0.0228"
"44.4000","148.0066","0.0232"
"44.6000","148.6735","0.0227"
"44.8000","149.3399","0.0229"
"45.0000","150.0067","0.0230"
"45.2000","150.6734","0.0227"
"45.4000","151.3400","0.0231"
"45.6000","152.0066","0.0230"
"45.8000","152.6733","0.0233"
"46.0000","153.3401","0.0234"
"46.2000","154.0067","0.0237"
"46.4000","154.6736","0.0234"
"46.6000","155.3399","0.0229"
"46.8000","156.0066","0.0236"
"47.0000","156.6732","0.0240"
"47.2000","157.3398","0.0240"
"47.4000","158.0065","0.0239"
"47.6000","158.6732","0.0240"
"47.8000","159.3399","0.0240"
"48.0000","160.0067","0.0240"
"48.2000","160.6734","0.0234"
"48.4000","161.3400","0.0239"
"48.6000","162.0064","0.0242"
"48.8000","162.6730","0.0248"
"49.0000","163.3399","0.0241"
"49.2000","164.0064","0.0252"
"49.4000","164.6732","0.0248"
"49.6000","165.3395","0.0249"
"49.8000","166.0067","0.0245"
"50.0000","166.6732","0.0249"
"50.2000","167.3401","0.0249"
"50.4000","168.0066","0.0251"
"50.6000","168.6732","0.0256"
"50.8000","169.3400","0.0226"
"51.0000","170.0065","0.0236"
"51.2000","170.6731","0.0236"
"51.4000","171.3398","0.0244"
"51.6000","172.0066","0.0253"
"51.8000","172.6731","0.0242"
"52.0000","173.3401","0.0250"
"52.2000","174.0066","0.0248"
"52.4000","174.6733","0.0250"
"52.6000","175.3397","0.0250"
"52.8000","176.0064","0.0261"
"53.0000","176.6732","0.0256"
"53.2000","177.3401","0.0263"
"53.4000","178.0065","0.0253"
"53.6000","178.6731","0.0258"
"53.8000","179.3397","0.0258"
"54.0000","180.0063","0.0261"
"54.2000","180.6734","0.0258"
"54.4000","181.3398","0.0263"
"54.6000","182.0069","0.0266"
"54.8000","182.6732","0.0275"
"55.0000","183.3401","0.0269"
"55.2000","184.0066","0.0269"
"55.4000","184.6733","0.0263"
"55.6000","185.3400","0.0251"
"55.8000","186.0065","0.0253"
"56.0000","186.6733","0.0256"
"56.2000","187.3400","0.0267"
"56.4000","188.0068","0.0274"
"56.6000","188.6734","0.0267"
"56.8000","189.3401","0.0272"
"57.0000","190.0065","0.0274"
"57.2000","190.6734","0.0270"
"57.4000","191.3399","0.0273"
"57.6000","192.0065","0.0269"
"57.8000","192.6732","0.0271"
"58.0000","193.3399","0.0282"
"58.2000","194.0065","0.0281"
"58.4000","194.6735","0.0279"
"58.6000","195.3401","0.0279"
"58.8000","196.0065","0.0281"
"59.0000","196.6732","0.0284"
"59.2000","197.3395","0.0286"
"59.4000","198.0066","0.0288"
"59.6000","198.6734","0.0280"
"59.8000","199.3399","0.0283"
"60.0000","200.0065","0.0289"
"60.2000","200.6733","0.0288"
"60.4000","201.3400","0.0286"
"60.6000","202.0068","0.0295"
"60.8000","202.6731","0.0294"
"61.0000","203.3399","0.0290"
"61.2000","204.0066","0.0288"
"61.4000","204.6730","0.0295"
"61.6000","205.3399","0.0298"
"61.8000","206.0064","0.0296"
"62.0000","206.6733","0.0294"
"62.2000","207.3398","0.0299"
"62.4000","208.0067","0.0296"
"62.6000","208.6732","0.0297"
"62.8000","209.3399","0.0301"
"63.0000","210.0066","0.0298"
"63.2000","210.6731","0.0304"
"63.4000","211.3398","0.0255"
"63.6000","212.0065","0.0269"
"63.8000","212.6732","0.0269"
"64.0000","213.3398","0.0278"
"64.2000","214.0065","0.0279"
"64.4000","214.6731","0.0294"
"64.6000","215.3399","0.0288"
"64.8000","216.0065","0.0285"
"65.0000","216.6733","0.0294"
"65.2000","217.3399","0.0295"
"65.4000","218.0067","0.0298"
"65.6000","218.6731","0.0299"
"65.8000","219.3400","0.0304"
"66.0000","220.0064","0.0299"
"66.2000","220.6732","0.0299"
"66.4000","221.3400","0.0305"
"66.6000","222.0066","0.0305"
"66.8000","222.6734","0.0308"
"67.0000","223.3400","0.0307"
"67.2000","224.0068","0.0315"
"67.4000","224.6732","0.0305"
"67.6000","225.3400","0.0318"
"67.8000","226.0067","0.0309"
"68.0000","226.6732","0.0314"
"68.2000","227.3400","0.0312"
"68.4000","228.0066","0.0313"
"68.6000","228.6734","0.0318"
"68.8000","229.3400","0.0322"
"69.0000","230.0069","0.0315"
"69.2000","230.6732","0.0317"
"69.4000","231.3400","0.0319"
"69.6000","232.0065","0.0323"
"69.8000","232.6732","0.0326"
"70.0000","233.3400","0.0324"
"70.2000","234.0066","0.0304"
"70.4000","234.6732","0.0314"
"70.6000","235.3401","0.0313"
"70.8000","236.0067","0.0315"
"71.0000","236.6732","0.0322"
"71.2000","237.3398","0.0322"
"71.4000","238.0063","0.0323"
"71.6000","238.6732","0.0324"
"71.8000","239.3398","0.0335"
"72.0000","240.0064","0.0339"
"72.2000","240.6729","0.0337"
"72.4000","241.3400","0.0335"
"72.6000","242.0065","0.0332"
"72.8000","242.6734","0.0336"
"73.0000","243.3398","0.0334"
"73.2000","244.0065","0.0335"
"73.4000","244.6732","0.0342"
"73.6000","245.3398","0.0341"
"73.8000","246.0065","0.0343"
"74.0000","246.6731","0.0346"
"74.2000","247.3399","0.0342"
"74.4000","248.0065","0.0346"
"74.6000","248.6734","0.0348"
"74.8000","249.3399","0.0341"
"75.0000","250.0067","0.0347"
"75.2000","250.6731","0.0353"
"75.4000","251.3398","0.0345"
"75.6000","252.0066","0.0357"
"75.8000","252.6734","0.0348"
"76.0000","253.3399","0.0351"
"76.2000","254.0064","0.0350"
"76.4000","254.6732","0.0357"
"76.6000","255.3397","0.0353"
"76.8000","256.0066","0.0358"
"77.0000","256.6732","0.0361"
"77.2000","257.3401","0.0365"
"77.4000","258.0064","0.0370"
"77.6000","258.6734","0.0368"
"77.8000","259.3399","0.0360"
"78.0000","260.0066","0.0365"
"78.2000","260.6732","0.0372"
"78.4000","261.3397","0.0370"
"78.6000","262.0066","0.0375"
"78.8000","262.6733","0.0380"
"79.0000","263.3401","0.0375"
"79.2000","264.0067","0.0377"
"79.4000","264.6735","0.0378"
"79.6000","265.3398","0.0382"
"79.8000","266.0068","0.0380"
"80.0000","266.6734","0.0381"
"80.2000","267.3399","0.0387"
"80.4000","268.0066","0.0381"
"80.6000","268.6733","0.0382"
"80.8000","269.3398","0.0390"
"81.0000","270.0068","0.0388"
"81.2000","270.6736","0.0389"
"81.4000","271.3399","0.0380"
"81.6000","272.0065","0.0392"
"81.8000","272.6729","0.0393"
"82.0000","273.3399","0.0395"
"82.2000","274.0065","0.0396"
"82.4000","274.6732","0.0396"
"82.6000","275.3398","0.0402"
"82.8000","276.0066","0.0399"
"83.0000","276.6733","0.0402"
"83.2000","277.3401","0.0399"
"83.4000","278.0064","0.0403"
"83.6000","278.6732","0.0407"
"83.8000","279.3398","0.0409"
"84.0000","280.0063","0.0410"
"84.2000","280.6732","0.0409"
"84.4000","281.3396","0.0403"
"84.6000","282.0067","0.0420"
"84.8000","282.6731","0.0417"
"85.0000","283.3401","0.0417"
"85.2000","284.0065","0.0416"
"85.4000","284.6733","0.0417"
"85.6000","285.3399","0.0385"
"85.8000","286.0064","0.0368"
"86.0000","286.6730","0.0379"
"86.2000","287.3398","0.0383"
"86.4000","288.0066","0.0392"
"86.6000","288.6731","0.0399"
"86.8000","289.3398","0.0403"
"87.0000","290.0065","0.0401"
"87.2000","290.6732","0.0419"
"87.4000","291.3398","0.0416"
"87.6000","292.0066","0.0415"
"87.8000","292.6731","0.0421"
"88.0000","293.3401","0.0422"
"88.2000","294.0065","0.0423"
"88.4000","294.6732","0.0424"
"88.6000","295.3398","0.0424"
"88.8000","296.0065","0.0427"
"89.0000","296.6733","0.0429"
"89.2000","297.3399","0.0427"
"89.4000","298.0068","0.0435"
"89.6000","298.6733","0.0435"
"89.8000","299.3401","0.0439"
"90.0000","300.0066","0.0443"
"90.2000","300.6733","0.0436"
"90.4000","301.3400","0.0447"
"90.6000","302.0064","0.0447"
"90.8000","302.6733","0.0452"
"91.0000","303.3400","0.0447"
"91.2000","304.0066","0.0454"
"91.4000","304.6734","0.0453"
"91.6000","305.3401","0.0454"
"91.8000","306.0066","0.0454"
"92.0000","306.6732","0.0454"
"92.2000","307.3399","0.0452"
"92.4000","308.0065","0.0465"
"92.6000","308.6732","0.0461"
"92.8000","309.3399","0.0464"
"93.0000","310.0065","0.0470"
"93.2000","310.6735","0.0469"
"93.4000","311.3401","0.0464"
"93.6000","312.0066","0.0472"
"93.8000","312.6732","0.0442"
"94.0000","313.3397","0.0447"
"94.2000","314.0065","0.0454"
"94.4000","314.6732","0.0468"
"94.6000","315.3398","0.0467"
"94.8000","316.0063","0.0468"
"95.0000","316.6734","0.0470"
"95.2000","317.3399","0.0470"
"95.4000","318.0067","0.0468"
"95.6000","318.6732","0.0483"
"95.8000","319.3399","0.0482"
"96.0000","320.0065","0.0482"
"96.2000","320.6731","0.0483"
"96.4000","321.3398","0.0483"
"96.6000","322.0064","0.0487"
"96.8000","322.6732","0.0486"
"97.0000","323.3397","0.0485"
"97.2000","324.0067","0.0497"
"97.4000","324.6732","0.0490"
"97.6000","325.3400","0.0493"
"97.8000","326.0064","0.0493"
"98.0000","326.6731","0.0496"
"98.2000","327.3398","0.0504"
"98.4000","328.0067","0.0501"
"98.6000","328.6732","0.0509"
"98.8000","329.3398","0.0508"
"99.0000","330.0065","0.0508"
"99.2000","330.6730","0.0509"
"99.4000","331.3400","0.0517"
"99.6000","332.0065","0.0520"
"99.8000","332.6735","0.0517"
"100.0000","333.3398","0.0517"
"100.2000","334.0067","0.0526"
"100.4000","334.6732","0.0526"
"100.6000","335.3399","0.0527"
"100.8000","336.0066","0.0532"
"101.0000","336.6731","0.0528"
"101.2000","337.3400","0.0538"
"101.4000","338.0066","0.0538"
"101.6000","338.6734","0.0535"
"101.8000","339.3400","0.0537"
"102.0000","340.0068","0.0541"
"102.2000","340.6732","0.0546"
"102.4000","341.3400","0.0542"
"102.6000","342.0067","0.0550"
"102.8000","342.6732","0.0562"
"103.0000","343.3400","0.0552"
"103.2000","344.0065","0.0558"
"103.4000","344.6731","0.0558"
"103.6000","345.3402","0.0557"
"103.8000","346.0069","0.0563"
"104.0000","346.6732","0.0562"
"104.2000","347.3399","0.0568"
"104.4000","348.0062","0.0571"
"104.6000","348.6733","0.0570"
"104.8000","349.3398","0.0574"
"105.0000","350.0066","0.0575"
"105.2000","350.6731","0.0580"
"105.4000","351.3399","0.0579"
"105.6000","352.0067","0.0577"
"105.8000","352.6733","0.0566"
"106.0000","353.3399","0.0575"
"106.2000","354.0065","0.0580"
"106.4000","354.6732","0.0586"
"106.6000","355.3397","0.0587"
"106.8000","356.0065","0.0593"
"107.0000","356.6730","0.0594"
"107.2000","357.3400","0.0598"
"107.4000","358.0064","0.0597"
"107.6000","358.6734","0.0601"
"107.8000","359.3399","0.0597"
"108.0000","360.0067","0.0614"
"108.2000","360.6732","0.0610"
"108.4000","361.3399","0.0612"
"108.6000","362.0064","0.0617"
"108.8000","362.6730","0.0620"
"109.0000","363.3399","0.0619"
"109.2000","364.0064","0.0594"
"109.4000","364.6732","0.0616"
"109.6000","365.3398","0.0619"
"109.8000","366.0066","0.0626"
"110.0000","366.6733","0.0620"
"110.2000","367.3399","0.0627"
"110.4000","368.0066","0.0629"
"110.6000","368.6732","0.0629"
"110.8000","369.3397","0.0632"
"111.0000","370.0066","0.0633"
"111.2000","370.6731","0.0642"
"111.4000","371.3398","0.0646"
"111.6000","372.0066","0.0652"
"111.8000","372.6732","0.0647"
"112.0000","373.3402","0.0656"
"112.2000","374.0065","0.0656"
"112.4000","374.6733","0.0653"
"112.6000","375.3398","0.0658"
"112.8000","376.0066","0.0638"
"113.0000","376.6733","0.0654"
"113.2000","377.3399","0.0657"
"113.4000","378.0066","0.0657"
"113.6000","378.6732","0.0673"
"113.8000","379.3401","0.0669"
"114.0000","380.0066","0.0672"
"114.2000","380.6736","0.0675"
"114.4000","381.3399","0.0651"
"114.6000","382.0067","0.0665"
"114.8000","382.6732","0.0676"
"115.0000","383.3398","0.0682"
"115.2000","384.0065","0.0676"
"115.4000","384.6732","0.0688"
"115.6000","385.3398","0.0694"
"115.8000","386.0068","0.0685"
"116.0000","386.6735","0.0696"
"116.2000","387.3399","0.0699"
"116.4000","388.0064","0.0711"
"116.6000","388.6730","0.0713"
"116.8000","389.3399","0.0713"
"117.0000","390.0064","0.0712"
"117.2000","390.6730","0.0722"
"117.4000","391.3397","0.0719"
"117.6000","392.0066","0.0725"
"117.8000","392.6732","0.0727"
"118.0000","393.3400","0.0729"
"118.2000","394.0066","0.0726"
"118.4000","394.6730","0.0731"
"118.6000","395.3400","0.0739"
"118.8000","396.0063","0.0737"
"119.0000","396.6732","0.0742"
"119.2000","397.3397","0.0745"
"119.4000","398.0066","0.0744"
"119.6000","398.6730","0.0755"
"119.8000","399.3401","0.0742"
"120.0000","400.0065","0.0763"
"120.2000","400.6733","0.0758"
"120.4000","401.3397","0.0762"
"120.6000","402.0065","0.0773"
"120.8000","402.6732","0.0769"
"121.0000","403.3399","0.0768"
"121.2000","404.0065","0.0746"
"121.4000","404.6730","0.0765"
"121.6000","405.3398","0.0772"
"121.8000","406.0065","0.0779"
"122.0000","406.6732","0.0782"
"122.2000","407.3399","0.0785"
"122.4000","408.0067","0.0795"
"122.6000","408.6730","0.0794"
"122.8000","409.3400","0.0792"
"123.0000","410.0066","0.0806"
"123.2000","410.6733","0.0807"
"123.4000","411.3398","0.0807"
"123.6000","412.0064","0.0807"
"123.8000","412.6733","0.0818"
"124.0000","413.3399","0.0820"
"124.2000","414.0068","0.0826"
"124.4000","414.6734","0.0826"
"124.6000","415.3401","0.0835"
"124.8000","416.0065","0.0825"
"125.0000","416.6734","0.0830"
"125.2000","417.3401","0.0836"
"125.4000","418.0064","0.0842"
"125.6000","418.6733","0.0838"
"125.8000","419.3398","0.0851"
"126.0000","420.0064","0.0858"
"126.2000","420.6735","0.0857"
"126.4000","421.3402","0.0866"
"126.6000","422.0066","0.0871"
"126.8000","422.6731","0.0864"
"127.0000","423.3396","0.0620"
"127.2000","424.0066","0.0505"
"127.4000","424.6731","0.0527"
"127.6000","425.3398","0.0534"
"127.8000","426.0064","0.0549"
"128.0000","426.6733","0.0563"
"128.2000","427.3399","0.0562"
"128.4000","428.0067","0.0578"
"128.6000","428.6732","0.0591"
"128.8000","429.3397","0.0599"
"129.0000","430.0065","0.0601"
"129.2000","430.6729","0.0612"
"129.4000","431.3399","0.0626"
"129.6000","432.0063","0.0635"
"129.8000","432.6732","0.0636"
"130.0000","433.3397","0.0648"
"130.2000","434.0066","0.0651"
"130.4000","434.6732","0.0658"
"130.6000","435.3400","0.0668"
"130.8000","436.0065","0.0673"
"131.0000","436.6732","0.0687"
"131.2000","437.3397","0.0699"
"131.4000","438.0064","0.0702"
"131.6000","438.6732","0.0708"
"131.8000","439.3397","0.0713"
"132.0000","440.0066","0.0722"
"132.2000","440.6731","0.0735"
"132.4000","441.3399","0.0742"
"132.6000","442.0066","0.0748"
"132.8000","442.6733","0.0758"
"133.0000","443.3399","0.0750"
"133.2000","444.0066","0.0763"
"133.4000","444.6732","0.0769"
"133.6000","445.3398","0.0774"
"133.8000","446.0065","0.0782"
"134.0000","446.6730","0.0793"
"134.2000","447.3400","0.0792"
"134.4000","448.0066","0.0798"
"134.6000","448.6734","0.0814"
"134.8000","449.3398","0.0823"
"135.0000","450.0068","0.0823"
"135.2000","450.6731","0.0831"
"135.4000","451.3399","0.0837"
"135.6000","452.0066","0.0840"
"135.8000","452.6731","0.0845"
"136.0000","453.3401","0.0848"
"136.2000","454.0065","0.0848"
"136.4000","454.6733","0.0856"
"136.6000","455.3400","0.0872"
"136.8000","456.0070","0.0865"
"137.0000","456.6732","0.0878"
"137.2000","457.3399","0.0886"
"137.4000","458.0064","0.0856"
"137.6000","458.6732","0.0862"
"137.8000","459.3399","0.0890"
"138.0000","460.0066","0.0896"
"138.2000","460.6732","0.0902"
"138.4000","461.3401","0.0911"
"138.6000","462.0068","0.0913"
"138.8000","462.6733","0.0916"
"139.0000","463.3398","0.0931"
"139.2000","464.0065","0.0907"
"139.4000","464.6732","0.0919"
"139.6000","465.3398","0.0932"
"139.8000","466.0065","0.0943"
"140.0000","466.6731","0.0948"
"140.2000","467.3400","0.0952"
"140.4000","468.0065","0.0959"
"140.6000","468.6732","0.0966"
"140.8000","469.3398","0.0941"
"141.0000","470.0065","0.0957"
"141.2000","470.6732","0.0971"
"141.4000","471.3397","0.0977"
"141.6000","472.0065","0.0982"
"141.8000","472.6729","0.0988"
"142.0000","473.3399","0.0997"
"142.2000","474.0064","0.0996"
"142.4000","474.6733","0.1009"
"142.6000","475.3399","0.1007"
"142.8000","476.0066","0.1023"
"143.0000","476.6731","0.1022"
"143.2000","477.3399","0.1027"
"143.4000","478.0064","0.1038"
"143.6000","478.6732","0.1041"
"143.8000","479.3398","0.1043"
"144.0000","480.0064","0.1047"
"144.2000","480.6732","0.1052"
"144.4000","481.3397","0.1055"
"144.6000","482.0066","0.1069"
"144.8000","482.6733","0.1077"
"145.0000","483.3401","0.1076"
"145.2000","484.0063","0.1081"
"145.4000","484.6734","0.1091"
"145.6000","485.3399","0.1092"
"145.8000","486.0066","0.1104"
"146.0000","486.6731","0.1111"
"146.2000","487.3398","0.1115"
"146.4000","488.0066","0.1121"
"146.6000","488.6733","0.1127"
"146.8000","489.3401","0.1139"
"147.0000","490.0067","0.1150"
"147.2000","490.6733","0.1149"
"147.4000","491.3399","0.1152"
"147.6000","492.0067","0.1160"
"147.8000","492.6735","0.1163"
"148.0000","493.3400","0.1174"
"148.2000","494.0067","0.1175"
"148.4000","494.6731","0.1190"
"148.6000","495.3399","0.1192"
"148.8000","496.0069","0.1203"
"149.0000","496.6736","0.1210"
"149.2000","497.3398","0.1207"
"149.4000","498.0065","0.1209"
"149.6000","498.6730","0.1220"
"149.8000","499.3398","0.1222"
"150.0000","500.0064","0.1228"
"150.2000","500.6732","0.1236"
"150.4000","501.3399","0.1244"
"150.6000","502.0065","0.1243"
"150.8000","502.6734","0.1250"
"151.0000","503.3399","0.1256"
"151.2000","504.0065","0.1265"
"151.4000","504.6731","0.1224"
"151.6000","505.3398","0.1249"
"151.8000","506.0063","0.1267"
"152.0000","506.6733","0.1273"
"152.2000","507.3397","0.1282"
"152.4000","508.0066","0.1295"
"152.6000","508.6729","0.1300"
"152.8000","509.3401","0.1309"
"153.0000","510.0066","0.1317"
"153.2000","510.6733","0.1318"
"153.4000","511.3398","0.1327"
"153.6000","512.0067","0.1342"
"153.8000","512.6731","0.1342"
"154.0000","513.3397","0.1346"
"154.2000","514.0066","0.1362"
"154.4000","514.6731","0.1363"
"154.6000","515.3399","0.1364"
"154.8000","516.0064","0.1360"
"155.0000","516.6732","0.1368"
"155.2000","517.3400","0.1376"
"155.4000","518.0066","0.1394"
"155.6000","518.6732","0.1391"
"155.8000","519.3398","0.1395"
"156.0000","520.0065","0.1407"
"156.2000","520.6731","0.1411"
"156.4000","521.3398","0.1423"
"156.6000","522.0063","0.1430"
"156.8000","522.6733","0.1437"
"157.0000","523.3398","0.1440"
"157.2000","524.0068","0.1459"
"157.4000","524.6732","0.1454"
"157.6000","525.3401","0.1464"
"157.8000","526.0065","0.1481"
"158.0000","526.6733","0.1492"
"158.2000","527.3400","0.1493"
"158.4000","528.0065","0.1497"
"158.6000","528.6734","0.1510"
"158.8000","529.3398","0.1515"
"159.0000","530.0068","0.1528"
"159.2000","530.6734","0.1534"
"159.4000","531.3403","0.1541"
"159.6000","532.0065","0.1549"
"159.8000","532.6733","0.1554"
"160.0000","533.3398","0.1553"
"160.2000","534.0064","0.1566"
"160.4000","534.6732","0.1576"
"160.6000","535.3399","0.1580"
"160.8000","536.0065","0.1591"
"161.0000","536.6734","0.1603"
"161.2000","537.3401","0.1605"
"161.4000","538.0065","0.1618"
"161.6000","538.6730","0.1630"
"161.8000","539.3396","0.1639"
"162.0000","540.0064","0.1642"
"162.2000","540.6732","0.1652"
"162.4000","541.3398","0.1661"
"162.6000","542.0063","0.1669"
"162.8000","542.6734","0.1682"
"163.0000","543.3398","0.1693"
"163.2000","544.0067","0.1697"
"163.4000","544.6732","0.1710"
"163.6000","545.3398","0.1718"
"163.8000","546.0065","0.1725"
"164.0000","546.6730","0.1735"
"164.2000","547.3398","0.1748"
"164.4000","548.0063","0.1755"
"164.6000","548.6732","0.1766"
"164.8000","549.3397","0.1772"
"165.0000","550.0066","0.1780"
"165.2000","550.6733","0.1789"
"165.4000","551.3398","0.1790"
"165.6000","552.0063","0.1809"
"165.8000","552.6731","0.1814"
"166.0000","553.3397","0.1827"
"166.2000","554.0065","0.1831"
"166.4000","554.6732","0.1842"
"166.6000","555.3398","0.1849"
"166.8000","556.0063","0.1857"
"167.0000","556.6729","0.1863"
"167.2000","557.3400","0.1877"
"167.4000","558.0065","0.1888"
"167.6000","558.6735","0.1899"
"167.8000","559.3397","0.1898"
"168.0000","560.0067","0.1900"
"168.2000","560.6731","0.1908"
"168.4000","561.3399","0.1918"
"168.6000","562.0064","0.1935"
"168.8000","562.6731","0.1939"
"169.0000","563.3400","0.1948"
"169.2000","564.0065","0.1953"
"169.4000","564.6734","0.1964"
"169.6000","565.3400","0.1977"
"169.8000","566.0068","0.1986"
"170.0000","566.6732","0.1989"
"170.2000","567.3399","0.2001"
"170.4000","568.0067","0.2013"
"170.6000","568.6732","0.2024"
"170.8000","569.3399","0.2026"
"171.0000","570.0063","0.2043"
"171.2000","570.6731","0.2049"
"171.4000","571.3401","0.2053"
"171.6000","572.0065","0.2065"
"171.8000","572.6730","0.2075"
"172.0000","573.3398","0.2082"
"172.2000","574.0064","0.2087"
"172.4000","574.6731","0.2102"
"172.6000","575.3397","0.2107"
"172.8000","576.0066","0.2115"
"173.0000","576.6732","0.2120"
"173.2000","577.3400","0.2128"
"173.4000","578.0066","0.2133"
"173.6000","578.6734","0.2145"
"173.8000","579.3398","0.2154"
"174.0000","580.0061","0.2164"
"174.2000","580.6732","0.2169"
"174.4000","581.3395","0.2189"
"174.6000","582.0067","0.2195"
"174.8000","582.6729","0.2202"
"175.0000","583.3398","0.2213"
"175.2000","584.0064","0.2222"
"175.4000","584.6734","0.2233"
"175.6000","585.3398","0.2238"
"175.8000","586.0065","0.2247"
"176.0000","586.6732","0.2262"
"176.2000","587.3397","0.2268"
"176.4000","588.0062","0.2280"
"176.6000","588.6731","0.2298"
"176.8000","589.3400","0.2301"
"177.0000","590.0065","0.2321"
"177.2000","590.6731","0.1970"
"177.4000","591.3397","0.2027"
"177.6000","592.0065","0.2066"
"177.8000","592.6732","0.2110"
"178.0000","593.3398","0.2147"
"178.2000","594.0063","0.2185"
"178.4000","594.6732","0.2215"
"178.6000","595.3399","0.2236"
"178.8000","596.0065","0.2253"
"179.0000","596.6732","0.2275"
"179.2000","597.3396","0.2293"
"179.4000","598.0065","0.2304"
"179.6000","598.6729","0.2325"
"179.8000","599.3400","0.2340"
"180.0000","600.0066","0.2349"
"180.2000","600.6735","0.2361"
"180.4000","601.3399","0.2361"
"180.6000","602.0064","0.2383"
"180.8000","602.6732","0.2394"
"181.0000","603.3398","0.2410"
"181.2000","604.0067","0.2416"
"181.4000","604.6732","0.2424"
"181.6000","605.3401","0.2433"
"181.8000","606.0067","0.1185"
"182.0000","606.6736","0.1288"
"182.2000","607.3397","0.1342"
"182.4000","608.0067","0.1388"
"182.6000","608.6733","0.1414"
"182.8000","609.3400","0.1452"
"183.0000","610.0064","0.1494"
"183.2000","610.6732","0.1516"
"183.4000","611.3398","0.1553"
"183.6000","612.0066","0.1579"
"183.8000","612.6736","0.1605"
"184.0000","613.3400","0.1639"
"184.2000","614.0065","0.1666"
"184.4000","614.6730","0.1689"
"184.6000","615.3399","0.1728"
"184.8000","616.0065","0.1747"
"185.0000","616.6731","0.1772"
"185.2000","617.3397","0.1797"
"185.4000","618.0067","0.1827"
"185.6000","618.6730","0.1845"
"185.8000","619.3400","0.1871"
"186.0000","620.0066","0.1899"
"186.2000","620.6731","0.1917"
"186.4000","621.3399","0.1938"
"186.6000","622.0063","0.1970"
"186.8000","622.6731","0.1985"
"187.0000","623.3394","0.2004"
"187.2000","624.0065","0.2026"
"187.4000","624.6732","0.2048"
"187.6000","625.3400","0.2067"
"187.8000","626.0064","0.2079"
"188.0000","626.6732","0.2103"
"188.2000","627.3398","0.2125"
"188.4000","628.0064","0.2145"
"188.6000","628.6731","0.2160"
"188.8000","629.3398","0.2183"
"189.0000","630.0065","0.2202"
"189.2000","630.6730","0.2219"
"189.4000","631.3398","0.2236"
"189.6000","632.0065","0.2259"
"189.8000","632.6732","0.2274"
"190.0000","633.3399","0.2296"
"190.2000","634.0066","0.2308"
"190.4000","634.6730","0.2331"
"190.6000","635.3401","0.2342"
"190.8000","636.0065","0.2367"
"191.0000","636.6731","0.2376"
"191.2000","637.3397","0.2395"
"191.4000","638.0064","0.2156"
"191.6000","638.6732","0.2204"
"191.8000","639.3398","0.2255"
"192.0000","640.0067","0.2293"
"192.2000","640.6732","0.2328"
"192.4000","641.3401","0.2358"
"192.6000","642.0065","0.2374"
"192.8000","642.6732","0.2394"
"193.0000","643.3401","0.2426"
"193.2000","644.0065","0.2438"
"193.4000","644.6732","0.2463"
"193.6000","645.3398","0.2478"
"193.8000","646.0064","0.2500"
"194.0000","646.6732","0.2512"
"194.2000","647.3401","0.2518"
"194.4000","648.0065","0.2543"
"194.6000","648.6730","0.2475"
"194.8000","649.3398","0.2512"
"195.0000","650.0065","0.2544"
"195.2000","650.6730","0.2561"
"195.4000","651.3400","0.2587"
"195.6000","652.0064","0.2608"
"195.8000","652.6732","0.2613"
"196.0000","653.3401","0.2633"
"196.2000","654.0067","0.2652"
"196.4000","654.6732","0.2671"
"196.6000","655.3396","0.2682"
"196.8000","656.0064","0.2693"
"197.0000","656.6731","0.2710"
"197.2000","657.3398","0.2723"
"197.4000","658.0063","0.2735"
"197.6000","658.6733","0.2755"
"197.8000","659.3397","0.2768"
"198.0000","660.0067","0.2781"
"198.2000","660.6733","0.2795"
"198.4000","661.3399","0.2813"
"198.6000","662.0064","0.2821"
"198.8000","662.6732","0.2838"
"199.0000","663.3397","0.2844"
"199.2000","664.0062","0.2870"
"199.4000","664.6732","0.2787"
"199.6000","665.3398","0.2830"
"199.8000","666.0063","0.2851"
"200.0000","666.6732","0.2864"
"200.2000","667.3398","0.2887"
"200.4000","668.0065","0.2901"
"200.6000","668.6732","0.2922"
"200.8000","669.3398","0.2937"
"201.0000","670.0064","0.2951"
"201.2000","670.6733","0.2961"
"201.4000","671.3398","0.2980"
"201.6000","672.0065","0.3002"
"201.8000","672.6730","0.1933"
"202.0000","673.3400","0.2084"
"202.2000","674.0065","0.2142"
"202.4000","674.6735","0.2202"
"202.6000","675.3398","0.2247"
"202.8000","676.0067","0.2289"
"203.0000","676.6731","0.2332"
"203.2000","677.3398","0.2378"
"203.4000","678.0065","0.2416"
"203.6000","678.6733","0.2460"
"203.8000","679.3399","0.2493"
"204.0000","680.0065","0.2528"
"204.2000","680.6734","0.2564"
"204.4000","681.3400","0.2592"
"204.6000","682.0068","0.2623"
"204.8000","682.6732","0.2664"
"205.0000","683.3400","0.2693"
"205.2000","684.0065","0.2725"
"205.4000","684.6732","0.2749"
"205.6000","685.3398","0.2776"
"205.8000","686.0064","0.2804"
"206.0000","686.6732","0.2822"
"206.2000","687.3400","0.2850"
"206.4000","688.0068","0.2881"
"206.6000","688.6733","0.2904"
"206.8000","689.3397","0.2929"
"207.0000","690.0063","0.2936"
"207.2000","690.6731","0.2962"
"207.4000","691.3399","0.2980"
"207.6000","692.0064","0.3004"
"207.8000","692.6731","0.3023"
"208.0000","693.3400","0.3042"
"208.2000","694.0064","0.3068"
"208.4000","694.6732","0.3081"
"208.6000","695.3399","0.3101"
"208.8000","696.0064","0.3119"
"209.0000","696.6733","0.3135"
"209.2000","697.3397","0.3147"
"209.4000","698.0065","0.3173"
"209.6000","698.6727","0.3189"
"209.8000","699.3398","0.3203"
"210.0000","700.0063","0.3211"
"210.2000","700.6732","0.3229"
"210.4000","701.3399","0.3244"
"210.6000","702.0066","0.3270"
"210.8000","702.6732","0.3274"
"211.0000","703.3398","0.3293"
"211.2000","704.0064","0.3314"
"211.4000","704.6730","0.3323"
"211.6000","705.3397","0.3342"
"211.8000","706.0065","0.3354"
"212.0000","706.6730","0.3373"
"212.2000","707.3397","0.3389"
"212.4000","708.0067","0.3403"
"212.6000","708.6731","0.3422"
"212.8000","709.3400","0.2096"
"213.0000","710.0064","0.2177"
"213.2000","710.6734","0.2244"
"213.4000","711.3398","0.2297"
"213.6000","712.0064","0.2353"
"213.8000","712.6732","0.2398"
"214.0000","713.3397","0.2443"
"214.2000","714.0065","0.2484"
"214.4000","714.6731","0.2531"
"214.6000","715.3400","0.2576"
"214.8000","716.0067","0.2613"
"215.0000","716.6735","0.2652"
"215.2000","717.3398","0.2699"
"215.4000","718.0065","0.2740"
"215.6000","718.6735","0.2770"
"215.8000","719.3398","0.2808"
"216.0000","720.0066","0.2853"
"216.2000","720.6731","0.2891"
"216.4000","721.3400","0.2918"
"216.6000","722.0068","0.2954"
"216.8000","722.6735","0.2989"
"217.0000","723.3399","0.3016"
"217.2000","724.0067","0.3050"
"217.4000","724.6730","0.3086"
"217.6000","725.3399","0.3113"
"217.8000","726.0065","0.3146"
"218.0000","726.6731","0.3171"
"218.2000","727.3397","0.3191"
"218.4000","728.0065","0.3222"
"218.6000","728.6734","0.3236"
"218.8000","729.3400","0.3263"
"219.0000","730.0065","0.3287"
"219.2000","730.6730","0.3314"
"219.4000","731.3398","0.3333"
"219.6000","732.0063","0.3363"
"219.8000","732.6732","0.3382"
"220.0000","733.3395","0.3404"
"220.2000","734.0065","0.3428"
"220.4000","734.6730","0.3446"
"220.6000","735.3399","0.3459"
"220.8000","736.0064","0.3478"
"221.0000","736.6733","0.3503"
"221.2000","737.3399","0.3526"
"221.4000","738.0063","0.3541"
"221.6000","738.6729","0.3558"
"221.8000","739.3397","0.3539"
"222.0000","740.0067","0.3563"
"222.2000","740.6730","0.3584"
"222.4000","741.3399","0.3596"
"222.6000","742.0063","0.3615"
"222.8000","742.6733","0.3634"
"223.0000","743.3399","0.3653"
"223.2000","744.0064","0.3679"
"223.4000","744.6732","0.3687"
"223.6000","745.3400","0.3706"
"223.8000","746.0063","0.3729"
"224.0000","746.6730","0.3733"
"224.2000","747.3397","0.3751"
"224.4000","748.0064","0.3773"
"224.6000","748.6732","0.3789"
"224.8000","749.3398","0.3804"
"225.0000","750.0067","0.3817"
"225.2000","750.6732","0.3829"
"225.4000","751.3398","0.3849"
"225.6000","752.0065","0.3863"
"225.8000","752.6732","0.3877"
"226.0000","753.3398","0.3896"
"226.2000","754.0066","0.3911"
"226.4000","754.6732","0.3917"
"226.6000","755.3398","0.3936"
"226.8000","756.0066","0.3957"
"227.0000","756.6735","0.3958"
"227.2000","757.3401","0.3981"
"227.4000","758.0067","0.3995"
"227.6000","758.6733","0.4005"
"227.8000","759.3397","0.4029"
"228.0000","760.0065","0.4035"
"228.2000","760.6733","0.4053"
"228.4000","761.3398","0.4067"
"228.6000","762.0064","0.4081"
"228.8000","762.6731","0.4099"
"229.0000","763.3400","0.4114"
"229.2000","764.0065","0.4133"
"229.4000","764.6731","0.4139"
"229.6000","765.3395","0.4165"
"229.8000","766.0065","0.4180"
"230.0000","766.6732","0.4189"
"230.2000","767.3398","0.4212"
"230.4000","768.0065","0.4227"
"230.6000","768.6733","0.4235"
"230.8000","769.3398","0.4257"
"231.0000","770.0065","0.4275"
"231.2000","770.6732","0.4296"
"231.4000","771.3398","0.4301"
"231.6000","772.0065","0.4282"
"231.8000","772.6730","0.4283"
"232.0000","773.3398","0.4309"
"232.2000","774.0062","0.4328"
"232.4000","774.6732","0.4341"
"232.6000","775.3395","0.4362"
"232.8000","776.0068","0.4382"
"233.0000","776.6733","0.4393"
"233.2000","777.3398","0.4415"
"233.4000","778.0066","0.4426"
"233.6000","778.6729","0.4453"
"233.8000","779.3398","0.4457"
"234.0000","780.0064","0.4481"
"234.2000","780.6731","0.4498"
"234.4000","781.3397","0.4511"
"234.6000","782.0064","0.4532"
"234.8000","782.6730","0.4544"
"235.0000","783.3398","0.4565"
"235.2000","784.0066","0.4576"
"235.4000","784.6733","0.4595"
"235.6000","785.3397","0.4614"
"235.8000","786.0068","0.4633"
"236.0000","786.6731","0.4642"
"236.2000","787.3398","0.4663"
"236.4000","788.0064","0.4677"
"236.6000","788.6730","0.4687"
"236.8000","789.3397","0.4715"
"237.0000","790.0065","0.4728"
"237.2000","790.6735","0.4746"
"237.4000","791.3398","0.4765"
"237.6000","792.0067","0.4775"
"237.8000","792.6731","0.4798"
"238.0000","793.3399","0.4809"
"238.2000","794.0066","0.4828"
"238.4000","794.6730","0.4850"
"238.6000","795.3400","0.4865"
"238.8000","796.0063","0.4879"
"239.0000","796.6730","0.4886"
"239.2000","797.3401","0.4908"
"239.4000","798.0069","0.4936"
"239.6000","798.6731","0.4943"
"239.8000","799.3399","0.4957"
"240.0000","800.0063","0.4974"
"240.2000","800.6731","0.4994"
"240.4000","801.3398","0.5020"
"240.6000","802.0066","0.5030"
"240.8000","802.6732","0.5032"
"240.9480","803.1666","0.1275"
"241.1480","803.8334","0.1325"
"241.3480","804.4999","0.1364"
"241.5480","805.1667","0.1396"
"241.7480","805.8332","0.1434"
"241.9480","806.5000","0.1464"
"242.1480","807.1666","0.1483"
"242.3480","807.8331","0.1510"
"242.5480","808.4998","0.1537"
"242.7480","809.1666","0.1564"
"242.9480","809.8332","0.1597"
"243.1480","810.5000","0.1614"
"243.3480","811.1667","0.1643"
"243.5480","811.8331","0.1664"
"243.7480","812.4998","0.1276"
"243.9480","813.1663","0.1321"
"244.1480","813.8332","0.1359"
"244.3480","814.4998","0.1388"
"244.5480","815.1664","0.1419"
"244.7480","815.8331","0.1447"
"244.9480","816.4999","0.1473"
"245.1480","817.1667","0.1509"
"245.3480","817.8331","0.1526"
"245.5480","818.4996","0.1559"
"245.7480","819.1664","0.1579"
"245.9480","819.8332","0.1607"
"246.1480","820.4996","0.1627"
"246.3480","821.1664","0.1645"
"246.5480","821.8328","0.1666"
"246.7480","822.5000","0.1688"
"246.9480","823.1664","0.1708"
"247.1480","823.8333","0.1737"
"247.3480","824.4998","0.1751"
"247.5480","825.1664","0.1775"
"247.7480","825.8331","0.1801"
"247.9480","826.4998","0.1812"
"248.1480","827.1664","0.1824"
"248.3480","827.8331","0.1851"
"248.5480","828.4997","0.1871"
"248.7480","829.1663","0.1881"
"248.9480","829.8332","0.1905"
"249.1480","830.4999","0.1927"
"249.3480","831.1664","0.1940"
"249.5480","831.8330","0.1195"
"249.7480","832.4999","0.1270"
"249.9480","833.1665","0.1305"
"250.1480","833.8332","0.1336"
"250.3480","834.4997","0.1356"
"250.5480","835.1665","0.1387"
"250.7480","835.8329","0.1418"
"250.9480","836.4999","0.1435"
"251.1480","837.1666","0.1461"
"251.3480","837.8333","0.1482"
"251.5480","838.4999","0.1509"
"251.7480","839.1663","0.1526"
"251.9480","839.8333","0.1548"
"252.1480","840.5000","0.1401"
"252.3480","841.1665","0.1440"
"252.5480","841.8333","0.1480"
"252.7480","842.4998","0.1504"
"252.9480","843.1667","0.1536"
"253.1480","843.8334","0.1565"
"253.3480","844.4999","0.1582"
"253.5480","845.1667","0.1605"
"253.7480","845.8334","0.1619"
"253.9480","846.4999","0.1645"
"254.1480","847.1667","0.1660"
"254.3480","847.8332","0.1682"
"254.5480","848.4998","0.1706"
"254.7480","849.1664","0.1716"
"254.9480","849.8332","0.1738"
"255.1480","850.4999","0.1754"
"255.3480","851.1666","0.1773"
"255.5480","851.8334","0.1787"
"255.7480","852.4998","0.1805"
"255.9480","853.1663","0.1816"
"256.1480","853.8329","0.1839"
"256.3480","854.4998","0.1855"
"256.5480","855.1664","0.1877"
"256.7480","855.8331","0.1890"
"256.9480","856.4997","0.1900"
"257.1480","857.1666","0.1918"
"257.3480","857.8331","0.1934"
"257.5480","858.4999","0.1951"
"257.7480","859.1664","0.1965"
"257.9480","859.8331","0.1976"
"258.1480","860.4998","0.1998"
"258.3480","861.1664","0.2000"
"258.5480","861.8331","0.2019"
"258.7480","862.4995","0.2030"
"258.9480","863.1665","0.2051"
"259.1480","863.8331","0.2055"
"259.2100","864.0398","0.2070"